worker_id,assignment_id,rt,slider_response,raw_stimulus,scenario,comparison,item_type,trial_index,time_elapsed
48,62cb830a4fbe7c0a2b86eb5f,13418,43,"Suppose you learn someone likes <b>pasta arrabiata</b>. How much does that change your beliefs about whether they would also <b>like chocolate cookies</b>?",pasta arrabiata,like chocolate cookies,other category,1,33042
48,62cb830a4fbe7c0a2b86eb5f,6621,84,"Suppose you learn someone likes watching <b>cartoons</b>. How much does that change your beliefs about whether they would also <b>like animated films</b>?",cartoons,like animated films,close competitor,2,39664
48,62cb830a4fbe7c0a2b86eb5f,7843,76,"Suppose you learn someone likes <b>raspberry cake</b>. How much does that change your beliefs about whether they would also <b>like raspberry pie</b>?",raspberry cake,like raspberry pie,close competitor,3,47508
48,62cb830a4fbe7c0a2b86eb5f,7802,57,"Suppose you learn someone likes <b>drinking tea</b>. How much does that change your beliefs about whether they would also <b>like red wine</b>?",drinking tea,like red wine,other category,4,55311
48,62cb830a4fbe7c0a2b86eb5f,8668,41,"Suppose you learn someone likes listening to <b>hard rock</b>. How much does that change your beliefs about whether they would also <b>like classic rock</b>?",hard rock,like classic rock,close competitor,5,63980
48,62cb830a4fbe7c0a2b86eb5f,4454,58,"Suppose you learn someone likes listening to <b>bebop jazz</b> How much does that change your beliefs about whether they would also <b>like cool jazz</b>?",bebop jazz,like cool jazz,same category,6,68436
48,62cb830a4fbe7c0a2b86eb5f,8705,50,"Suppose you learn someone wants to take a <b>morning flight to Madrid</b>. How much does that change your beliefs about whether they would also <b>want an evening flight to the United States</b>?",morning flight to Madrid,want an evening flight to the United States,other category,7,77142
48,62cb830a4fbe7c0a2b86eb5f,6912,24,"Suppose you learn someone wants to take an <b>afternoon flight to Boston</b>. How much does that change your beliefs about whether they would also <b>want a morning flight to Boston</b>?",afternoon flight to Boston,want a morning flight to Boston,close competitor,8,84055
48,62cb830a4fbe7c0a2b86eb5f,4901,36,"Suppose you learn someone likes <b>drinking white wine</b>. How much does that change your beliefs about whether they would also <b>like beer</b>?",drinking white wine,like beer,same category,9,88957
48,62cb830a4fbe7c0a2b86eb5f,6669,25,"Suppose you learn someone likes watching <b>fantasy movies</b>. How much does that change your beliefs about whether they would also <b>like film noirs</b>?",fantasy movies,like film noirs,same category,10,95628
21,62cb830a4fbe7c0a2b86eb5f,39126,75,"Suppose you learn someone likes watching <b>fantasy movies</b>. How much does that change your beliefs about whether they would also <b>like science fiction movies</b>?",fantasy movies,like science fiction movies,close competitor,1,47311
21,62cb830a4fbe7c0a2b86eb5f,4083,49,"Suppose you learn someone likes listening to <b>hard rock</b>. How much does that change your beliefs about whether they would also <b>like dixieland</b>?",hard rock,like dixieland,other category,2,51396
21,62cb830a4fbe7c0a2b86eb5f,3633,7,"Suppose you learn someone likes listening to <b>bebop jazz</b> How much does that change your beliefs about whether they would also <b>like death metal</b>?",bebop jazz,like death metal,other category,3,55030
21,62cb830a4fbe7c0a2b86eb5f,3139,69,"Suppose you learn someone likes <b>drinking tea</b>. How much does that change your beliefs about whether they would also <b>like coffee</b>?",drinking tea,like coffee,close competitor,4,58169
21,62cb830a4fbe7c0a2b86eb5f,2935,51,"Suppose you learn someone likes <b>raspberry cake</b>. How much does that change your beliefs about whether they would also <b>like cheese sandwiches</b>?",raspberry cake,like cheese sandwiches,other category,5,61105
21,62cb830a4fbe7c0a2b86eb5f,2624,50,"Suppose you learn someone wants to take an <b>afternoon flight to Boston</b>. How much does that change your beliefs about whether they would also <b>want an afternoon flight to Europe</b>?",afternoon flight to Boston,want an afternoon flight to Europe,other category,6,63731
21,62cb830a4fbe7c0a2b86eb5f,18721,60,"Suppose you learn someone likes watching <b>cartoons</b>. How much does that change your beliefs about whether they would also <b>like horror movies</b>?",cartoons,like horror movies,other category,7,82453
21,62cb830a4fbe7c0a2b86eb5f,2303,81,"Suppose you learn someone likes <b>drinking white wine</b>. How much does that change your beliefs about whether they would also <b>like beer</b>?",drinking white wine,like beer,same category,8,84757
21,62cb830a4fbe7c0a2b86eb5f,2691,50,"Suppose you learn someone wants to take a <b>morning flight to Madrid</b>. How much does that change your beliefs about whether they would also <b>want a morning flight to Berlin</b>?",morning flight to Madrid,want a morning flight to Berlin,same category,9,87449
21,62cb830a4fbe7c0a2b86eb5f,3315,67,"Suppose you learn someone likes <b>pasta arrabiata</b>. How much does that change your beliefs about whether they would also <b>like pizza</b>?",pasta arrabiata,like pizza,same category,10,90765
42,62cb830a4fbe7c0a2b86eb5f,7799,96,"Suppose you learn someone likes listening to <b>bebop jazz</b> How much does that change your beliefs about whether they would also <b>like cool jazz</b>?",bebop jazz,like cool jazz,same category,1,19841
42,62cb830a4fbe7c0a2b86eb5f,3112,91,"Suppose you learn someone likes listening to <b>hard rock</b>. How much does that change your beliefs about whether they would also <b>like heavy metal</b>?",hard rock,like heavy metal,same category,2,22957
42,62cb830a4fbe7c0a2b86eb5f,5196,52,"Suppose you learn someone likes watching <b>cartoons</b>. How much does that change your beliefs about whether they would also <b>like horror movies</b>?",cartoons,like horror movies,other category,3,28157
42,62cb830a4fbe7c0a2b86eb5f,4296,50,"Suppose you learn someone likes <b>pasta arrabiata</b>. How much does that change your beliefs about whether they would also <b>like chocolate cookies</b>?",pasta arrabiata,like chocolate cookies,other category,4,32458
42,62cb830a4fbe7c0a2b86eb5f,5662,52,"Suppose you learn someone wants to take an <b>afternoon flight to Boston</b>. How much does that change your beliefs about whether they would also <b>want an afternoon flight to Europe</b>?",afternoon flight to Boston,want an afternoon flight to Europe,other category,5,38124
42,62cb830a4fbe7c0a2b86eb5f,2560,55,"Suppose you learn someone wants to take a <b>morning flight to Madrid</b>. How much does that change your beliefs about whether they would also <b>want a morning flight to Berlin</b>?",morning flight to Madrid,want a morning flight to Berlin,same category,6,40690
42,62cb830a4fbe7c0a2b86eb5f,2752,56,"Suppose you learn someone likes watching <b>fantasy movies</b>. How much does that change your beliefs about whether they would also <b>like animation films</b>?",fantasy movies,like animation films,other category,7,43446
42,62cb830a4fbe7c0a2b86eb5f,3891,52,"Suppose you learn someone likes <b>drinking tea</b>. How much does that change your beliefs about whether they would also <b>like soda</b>?",drinking tea,like soda,same category,8,47341
42,62cb830a4fbe7c0a2b86eb5f,3895,52,"Suppose you learn someone likes <b>raspberry cake</b>. How much does that change your beliefs about whether they would also <b>like cheese sandwiches</b>?",raspberry cake,like cheese sandwiches,other category,9,51242
42,62cb830a4fbe7c0a2b86eb5f,2680,53,"Suppose you learn someone likes <b>drinking white wine</b>. How much does that change your beliefs about whether they would also <b>like coffee</b>?",drinking white wine,like coffee,other category,10,53925
44,62cb830a4fbe7c0a2b86eb5f,35658,20,"Suppose you learn someone wants to take an <b>afternoon flight to Boston</b>. How much does that change your beliefs about whether they would also <b>want a morning flight to Boston</b>?",afternoon flight to Boston,want a morning flight to Boston,close competitor,1,62226
44,62cb830a4fbe7c0a2b86eb5f,10827,19,"Suppose you learn someone likes <b>drinking tea</b>. How much does that change your beliefs about whether they would also <b>like soft drinks</b>?",drinking tea,like soft drinks,same category,2,73060
44,62cb830a4fbe7c0a2b86eb5f,8174,70,"Suppose you learn someone likes <b>raspberry cake</b>. How much does that change your beliefs about whether they would also <b>like lemon cake</b>?",raspberry cake,like lemon cake,same category,3,81242
40,62cb830a4fbe7c0a2b86eb60,11813,50,"Suppose you learn someone likes <b>pasta arrabiata</b>. How much does that change your beliefs about whether they would also <b>like pizza</b>?",pasta arrabiata,like pizza,same category,1,57704
44,62cb830a4fbe7c0a2b86eb5f,8619,20,"Suppose you learn someone likes watching <b>fantasy movies</b>. How much does that change your beliefs about whether they would also <b>like animation films</b>?",fantasy movies,like animation films,other category,4,89869
44,62cb830a4fbe7c0a2b86eb5f,9036,81,"Suppose you learn someone likes <b>pasta arrabiata</b>. How much does that change your beliefs about whether they would also <b>like lasagna</b>?",pasta arrabiata,like lasagna,same category,5,98912
44,62cb830a4fbe7c0a2b86eb5f,5670,86,"Suppose you learn someone likes watching <b>cartoons</b>. How much does that change your beliefs about whether they would also <b>like animated films</b>?",cartoons,like animated films,close competitor,6,104590
40,62cb830a4fbe7c0a2b86eb60,15492,65,"Suppose you learn someone likes watching <b>fantasy movies</b>. How much does that change your beliefs about whether they would also <b>like science fiction movies</b>?",fantasy movies,like science fiction movies,close competitor,2,73198
44,62cb830a4fbe7c0a2b86eb5f,3457,83,"Suppose you learn someone likes listening to <b>hard rock</b>. How much does that change your beliefs about whether they would also <b>like heavy metal</b>?",hard rock,like heavy metal,same category,7,108055
40,62cb830a4fbe7c0a2b86eb60,6112,0,"Suppose you learn someone likes <b>drinking tea</b>. How much does that change your beliefs about whether they would also <b>like red wine</b>?",drinking tea,like red wine,other category,3,79313
44,62cb830a4fbe7c0a2b86eb5f,5039,74,"Suppose you learn someone wants to take a <b>morning flight to Madrid</b>. How much does that change your beliefs about whether they would also <b>want a morning flight to Berlin</b>?",morning flight to Madrid,want a morning flight to Berlin,same category,8,113101
80,62cb830a4fbe7c0a2b86eb60,48924,82,"Suppose you learn someone wants to take an <b>afternoon flight to Boston</b>. How much does that change your beliefs about whether they would also <b>want an afternoon flight to San Francisco</b>?",afternoon flight to Boston,want an afternoon flight to San Francisco,same category,1,204474
44,62cb830a4fbe7c0a2b86eb5f,5004,25,"Suppose you learn someone likes <b>drinking white wine</b>. How much does that change your beliefs about whether they would also <b>like beer</b>?",drinking white wine,like beer,same category,9,118113
44,62cb830a4fbe7c0a2b86eb5f,4274,6,"Suppose you learn someone likes listening to <b>bebop jazz</b> How much does that change your beliefs about whether they would also <b>like doom metal</b>?",bebop jazz,like doom metal,other category,10,122395
40,62cb830a4fbe7c0a2b86eb60,12925,50,"Suppose you learn someone wants to take a <b>morning flight to Madrid</b>. How much does that change your beliefs about whether they would also <b>want a morning flight to Berlin</b>?",morning flight to Madrid,want a morning flight to Berlin,same category,4,92241
80,62cb830a4fbe7c0a2b86eb60,18757,33,"Suppose you learn someone wants to take a <b>morning flight to Madrid</b>. How much does that change your beliefs about whether they would also <b>want a morning flight to the United States</b>?",morning flight to Madrid,want a morning flight to the United States,other category,2,223234
40,62cb830a4fbe7c0a2b86eb60,16982,0,"Suppose you learn someone likes listening to <b>hard rock</b>. How much does that change your beliefs about whether they would also <b>like bebop jazz</b>?",hard rock,like bebop jazz,other category,5,109225
40,62cb830a4fbe7c0a2b86eb60,6378,100,"Suppose you learn someone likes <b>drinking white wine</b>. How much does that change your beliefs about whether they would also <b>like red wine</b>?",drinking white wine,like red wine,close competitor,6,115604
80,62cb830a4fbe7c0a2b86eb60,14027,50,"Suppose you learn someone likes <b>raspberry cake</b>. How much does that change your beliefs about whether they would also <b>like pasta al forno</b>?",raspberry cake,like pasta al forno,other category,3,237264
40,62cb830a4fbe7c0a2b86eb60,5780,50,"Suppose you learn someone likes <b>raspberry cake</b>. How much does that change your beliefs about whether they would also <b>like chocolate cookies</b>?",raspberry cake,like chocolate cookies,same category,7,121386
40,62cb830a4fbe7c0a2b86eb60,11110,50,"Suppose you learn someone wants to take an <b>afternoon flight to Boston</b>. How much does that change your beliefs about whether they would also <b>want a morning flight to Europe</b>?",afternoon flight to Boston,want a morning flight to Europe,other category,8,132498
80,62cb830a4fbe7c0a2b86eb60,23987,89,"Suppose you learn someone likes watching <b>cartoons</b>. How much does that change your beliefs about whether they would also <b>like thrillers</b>?",cartoons,like thrillers,other category,4,261253
40,62cb830a4fbe7c0a2b86eb60,7472,0,"Suppose you learn someone likes listening to <b>bebop jazz</b> How much does that change your beliefs about whether they would also <b>like death metal</b>?",bebop jazz,like death metal,other category,9,139972
40,62cb830a4fbe7c0a2b86eb60,4362,51,"Suppose you learn someone likes watching <b>cartoons</b>. How much does that change your beliefs about whether they would also <b>like thrillers</b>?",cartoons,like thrillers,other category,10,144336
80,62cb830a4fbe7c0a2b86eb60,34707,10,"Suppose you learn someone likes <b>drinking tea</b>. How much does that change your beliefs about whether they would also <b>like beer</b>?",drinking tea,like beer,other category,5,295963
80,62cb830a4fbe7c0a2b86eb60,23048,12,"Suppose you learn someone likes <b>drinking white wine</b>. How much does that change your beliefs about whether they would also <b>like coffee</b>?",drinking white wine,like coffee,other category,6,319013
80,62cb830a4fbe7c0a2b86eb60,12318,87,"Suppose you learn someone likes listening to <b>bebop jazz</b> How much does that change your beliefs about whether they would also <b>like cool jazz</b>?",bebop jazz,like cool jazz,same category,7,331333
95,62cb830a4fbe7c0a2b86eb60,13805,64,"Suppose you learn someone likes <b>drinking white wine</b>. How much does that change your beliefs about whether they would also <b>like whiskey</b>?",drinking white wine,like whiskey,same category,1,34892
95,62cb830a4fbe7c0a2b86eb60,12164,0,"Suppose you learn someone wants to take a <b>morning flight to Madrid</b>. How much does that change your beliefs about whether they would also <b>want an evening flight to the United States</b>?",morning flight to Madrid,want an evening flight to the United States,other category,2,47059
80,62cb830a4fbe7c0a2b86eb60,27807,95,"Suppose you learn someone likes <b>pasta arrabiata</b>. How much does that change your beliefs about whether they would also <b>like pasta al forno</b>?",pasta arrabiata,like pasta al forno,close competitor,8,359143
95,62cb830a4fbe7c0a2b86eb60,13073,49,"Suppose you learn someone likes watching <b>fantasy movies</b>. How much does that change your beliefs about whether they would also <b>like animation films</b>?",fantasy movies,like animation films,other category,3,60135
80,62cb830a4fbe7c0a2b86eb60,9376,75,"Suppose you learn someone likes listening to <b>hard rock</b>. How much does that change your beliefs about whether they would also <b>like heavy metal</b>?",hard rock,like heavy metal,same category,9,368522
95,62cb830a4fbe7c0a2b86eb60,6400,17,"Suppose you learn someone likes <b>drinking tea</b>. How much does that change your beliefs about whether they would also <b>like soft drinks</b>?",drinking tea,like soft drinks,same category,4,66538
66,62cb830a4fbe7c0a2b86eb5f,8693,50,"Suppose you learn someone likes <b>raspberry cake</b>. How much does that change your beliefs about whether they would also <b>like cheese sandwiches</b>?",raspberry cake,like cheese sandwiches,other category,1,26467
80,62cb830a4fbe7c0a2b86eb60,10367,94,"Suppose you learn someone likes watching <b>fantasy movies</b>. How much does that change your beliefs about whether they would also <b>like animation films</b>?",fantasy movies,like animation films,other category,10,378892
95,62cb830a4fbe7c0a2b86eb60,4976,0,"Suppose you learn someone likes listening to <b>bebop jazz</b> How much does that change your beliefs about whether they would also <b>like doom metal</b>?",bebop jazz,like doom metal,other category,5,71516
95,62cb830a4fbe7c0a2b86eb60,4442,64,"Suppose you learn someone likes <b>raspberry cake</b>. How much does that change your beliefs about whether they would also <b>like chocolate cookies</b>?",raspberry cake,like chocolate cookies,same category,6,75961
95,62cb830a4fbe7c0a2b86eb60,3812,100,"Suppose you learn someone likes listening to <b>hard rock</b>. How much does that change your beliefs about whether they would also <b>like power metal</b>?",hard rock,like power metal,same category,7,79775
66,62cb830a4fbe7c0a2b86eb5f,13640,58,"Suppose you learn someone wants to take an <b>afternoon flight to Boston</b>. How much does that change your beliefs about whether they would also <b>want an afternoon flight to San Francisco</b>?",afternoon flight to Boston,want an afternoon flight to San Francisco,same category,2,40107
95,62cb830a4fbe7c0a2b86eb60,2984,100,"Suppose you learn someone likes watching <b>cartoons</b>. How much does that change your beliefs about whether they would also <b>like animated films</b>?",cartoons,like animated films,close competitor,8,82762
14,62cb830a4fbe7c0a2b86eb60,10102,26,"Suppose you learn someone likes watching <b>cartoons</b>. How much does that change your beliefs about whether they would also <b>like comedies</b>?",cartoons,like comedies,same category,1,29823
95,62cb830a4fbe7c0a2b86eb60,4239,75,"Suppose you learn someone wants to take an <b>afternoon flight to Boston</b>. How much does that change your beliefs about whether they would also <b>want an afternoon flight to Europe</b>?",afternoon flight to Boston,want an afternoon flight to Europe,other category,9,87003
66,62cb830a4fbe7c0a2b86eb5f,5876,73,"Suppose you learn someone likes <b>drinking white wine</b>. How much does that change your beliefs about whether they would also <b>like coffee</b>?",drinking white wine,like coffee,other category,3,45984
95,62cb830a4fbe7c0a2b86eb60,4254,49,"Suppose you learn someone likes <b>pasta arrabiata</b>. How much does that change your beliefs about whether they would also <b>like lemon cake</b>?",pasta arrabiata,like lemon cake,other category,10,91260
66,62cb830a4fbe7c0a2b86eb5f,6134,67,"Suppose you learn someone wants to take a <b>morning flight to Madrid</b>. How much does that change your beliefs about whether they would also <b>want a morning flight to the United States</b>?",morning flight to Madrid,want a morning flight to the United States,other category,4,52119
14,62cb830a4fbe7c0a2b86eb60,10943,10,"Suppose you learn someone wants to take a <b>morning flight to Madrid</b>. How much does that change your beliefs about whether they would also <b>want an afternoon flight to Madrid</b>?",morning flight to Madrid,want an afternoon flight to Madrid,close competitor,2,40767
66,62cb830a4fbe7c0a2b86eb5f,4634,86,"Suppose you learn someone likes watching <b>fantasy movies</b>. How much does that change your beliefs about whether they would also <b>like animation films</b>?",fantasy movies,like animation films,other category,5,56753
66,62cb830a4fbe7c0a2b86eb5f,5463,66,"Suppose you learn someone likes listening to <b>bebop jazz</b> How much does that change your beliefs about whether they would also <b>like cool jazz</b>?",bebop jazz,like cool jazz,same category,6,62216
14,62cb830a4fbe7c0a2b86eb60,9031,50,"Suppose you learn someone likes <b>pasta arrabiata</b>. How much does that change your beliefs about whether they would also <b>like pasta al forno</b>?",pasta arrabiata,like pasta al forno,close competitor,3,49799
66,62cb830a4fbe7c0a2b86eb5f,5631,100,"Suppose you learn someone likes watching <b>cartoons</b>. How much does that change your beliefs about whether they would also <b>like comedies</b>?",cartoons,like comedies,same category,7,67847
66,62cb830a4fbe7c0a2b86eb5f,3214,64,"Suppose you learn someone likes <b>drinking tea</b>. How much does that change your beliefs about whether they would also <b>like coffee</b>?",drinking tea,like coffee,close competitor,8,71062
14,62cb830a4fbe7c0a2b86eb60,11328,5,"Suppose you learn someone wants to take an <b>afternoon flight to Boston</b>. How much does that change your beliefs about whether they would also <b>want a morning flight to Europe</b>?",afternoon flight to Boston,want a morning flight to Europe,other category,4,61127
66,62cb830a4fbe7c0a2b86eb5f,15297,31,"Suppose you learn someone likes listening to <b>hard rock</b>. How much does that change your beliefs about whether they would also <b>like dixieland</b>?",hard rock,like dixieland,other category,9,86359
14,62cb830a4fbe7c0a2b86eb60,13671,57,"Suppose you learn someone likes <b>drinking white wine</b>. How much does that change your beliefs about whether they would also <b>like whiskey</b>?",drinking white wine,like whiskey,same category,5,74798
66,62cb830a4fbe7c0a2b86eb5f,3714,50,"Suppose you learn someone likes <b>pasta arrabiata</b>. How much does that change your beliefs about whether they would also <b>like chocolate cookies</b>?",pasta arrabiata,like chocolate cookies,other category,10,90074
14,62cb830a4fbe7c0a2b86eb60,7824,18,"Suppose you learn someone likes listening to <b>bebop jazz</b> How much does that change your beliefs about whether they would also <b>like death metal</b>?",bebop jazz,like death metal,other category,6,82623
14,62cb830a4fbe7c0a2b86eb60,9312,79,"Suppose you learn someone likes watching <b>fantasy movies</b>. How much does that change your beliefs about whether they would also <b>like science fiction movies</b>?",fantasy movies,like science fiction movies,close competitor,7,91935
54,62cb830a4fbe7c0a2b86eb60,18503,52,"Suppose you learn someone wants to take a <b>morning flight to Madrid</b>. How much does that change your beliefs about whether they would also <b>want a morning flight to the United States</b>?",morning flight to Madrid,want a morning flight to the United States,other category,1,90208
54,62cb830a4fbe7c0a2b86eb60,17703,90,"Suppose you learn someone likes watching <b>cartoons</b>. How much does that change your beliefs about whether they would also <b>like horror movies</b>?",cartoons,like horror movies,other category,2,107915
54,62cb830a4fbe7c0a2b86eb60,9121,52,"Suppose you learn someone wants to take an <b>afternoon flight to Boston</b>. How much does that change your beliefs about whether they would also <b>want a morning flight to Europe</b>?",afternoon flight to Boston,want a morning flight to Europe,other category,3,117040
54,62cb830a4fbe7c0a2b86eb60,17031,50,"Suppose you learn someone likes <b>pasta arrabiata</b>. How much does that change your beliefs about whether they would also <b>like chocolate cookies</b>?",pasta arrabiata,like chocolate cookies,other category,4,134074
54,62cb830a4fbe7c0a2b86eb60,10428,91,"Suppose you learn someone likes watching <b>fantasy movies</b>. How much does that change your beliefs about whether they would also <b>like science fiction movies</b>?",fantasy movies,like science fiction movies,close competitor,5,144506
54,62cb830a4fbe7c0a2b86eb60,10948,4,"Suppose you learn someone likes <b>drinking white wine</b>. How much does that change your beliefs about whether they would also <b>like whiskey</b>?",drinking white wine,like whiskey,same category,6,155456
54,62cb830a4fbe7c0a2b86eb60,13052,2,"Suppose you learn someone likes listening to <b>bebop jazz</b> How much does that change your beliefs about whether they would also <b>like doom metal</b>?",bebop jazz,like doom metal,other category,7,168512
54,62cb830a4fbe7c0a2b86eb60,8865,100,"Suppose you learn someone likes listening to <b>hard rock</b>. How much does that change your beliefs about whether they would also <b>like heavy metal</b>?",hard rock,like heavy metal,same category,8,177380
54,62cb830a4fbe7c0a2b86eb60,13784,25,"Suppose you learn someone likes <b>drinking tea</b>. How much does that change your beliefs about whether they would also <b>like red wine</b>?",drinking tea,like red wine,other category,9,191167
54,62cb830a4fbe7c0a2b86eb60,14490,85,"Suppose you learn someone likes <b>raspberry cake</b>. How much does that change your beliefs about whether they would also <b>like lemon cake</b>?",raspberry cake,like lemon cake,same category,10,205659
14,62cb830a4fbe7c0a2b86eb60,128863,91,"Suppose you learn someone likes <b>raspberry cake</b>. How much does that change your beliefs about whether they would also <b>like raspberry pie</b>?",raspberry cake,like raspberry pie,close competitor,8,220799
14,62cb830a4fbe7c0a2b86eb60,3807,37,"Suppose you learn someone likes listening to <b>hard rock</b>. How much does that change your beliefs about whether they would also <b>like dixieland</b>?",hard rock,like dixieland,other category,9,224607
14,62cb830a4fbe7c0a2b86eb60,4295,38,"Suppose you learn someone likes <b>drinking tea</b>. How much does that change your beliefs about whether they would also <b>like soft drinks</b>?",drinking tea,like soft drinks,same category,10,228903
73,62cb8baf4fbe7c0a2b86ee08,9613,76,"Suppose you learn someone likes <b>pasta arrabiata</b>. How much does that change your beliefs about whether they would also <b>like pizza</b>?",pasta arrabiata,like pizza,same category,1,55317
73,62cb8baf4fbe7c0a2b86ee08,3297,65,"Suppose you learn someone likes listening to <b>bebop jazz</b> How much does that change your beliefs about whether they would also <b>like death metal</b>?",bebop jazz,like death metal,other category,2,58615
73,62cb8baf4fbe7c0a2b86ee08,2678,79,"Suppose you learn someone likes <b>raspberry cake</b>. How much does that change your beliefs about whether they would also <b>like chocolate cookies</b>?",raspberry cake,like chocolate cookies,same category,3,61295
73,62cb8baf4fbe7c0a2b86ee08,5089,51,"Suppose you learn someone wants to take an <b>afternoon flight to Boston</b>. How much does that change your beliefs about whether they would also <b>want a morning flight to Boston</b>?",afternoon flight to Boston,want a morning flight to Boston,close competitor,4,66386
73,62cb8baf4fbe7c0a2b86ee08,2579,65,"Suppose you learn someone likes <b>drinking white wine</b>. How much does that change your beliefs about whether they would also <b>like red wine</b>?",drinking white wine,like red wine,close competitor,5,68966
73,62cb8baf4fbe7c0a2b86ee08,2518,86,"Suppose you learn someone likes listening to <b>hard rock</b>. How much does that change your beliefs about whether they would also <b>like heavy metal</b>?",hard rock,like heavy metal,same category,6,71486
73,62cb8baf4fbe7c0a2b86ee08,3398,26,"Suppose you learn someone wants to take a <b>morning flight to Madrid</b>. How much does that change your beliefs about whether they would also <b>want a morning flight to Berlin</b>?",morning flight to Madrid,want a morning flight to Berlin,same category,7,74885
73,62cb8baf4fbe7c0a2b86ee08,2474,84,"Suppose you learn someone likes watching <b>cartoons</b>. How much does that change your beliefs about whether they would also <b>like animated films</b>?",cartoons,like animated films,close competitor,8,77361
73,62cb8baf4fbe7c0a2b86ee08,6162,48,"Suppose you learn someone likes watching <b>fantasy movies</b>. How much does that change your beliefs about whether they would also <b>like film noirs</b>?",fantasy movies,like film noirs,same category,9,83525
73,62cb8baf4fbe7c0a2b86ee08,3668,56,"Suppose you learn someone likes <b>drinking tea</b>. How much does that change your beliefs about whether they would also <b>like red wine</b>?",drinking tea,like red wine,other category,10,87196
43,62cb8baf4fbe7c0a2b86ee08,6445,51,"Suppose you learn someone likes <b>pasta arrabiata</b>. How much does that change your beliefs about whether they would also <b>like chocolate cookies</b>?",pasta arrabiata,like chocolate cookies,other category,1,16299
43,62cb8baf4fbe7c0a2b86ee08,8006,20,"Suppose you learn someone wants to take an <b>afternoon flight to Boston</b>. How much does that change your beliefs about whether they would also <b>want a morning flight to Boston</b>?",afternoon flight to Boston,want a morning flight to Boston,close competitor,2,24307
43,62cb8baf4fbe7c0a2b86ee08,6125,40,"Suppose you learn someone likes <b>drinking white wine</b>. How much does that change your beliefs about whether they would also <b>like red wine</b>?",drinking white wine,like red wine,close competitor,3,30434
43,62cb8baf4fbe7c0a2b86ee08,4126,19,"Suppose you learn someone likes listening to <b>bebop jazz</b> How much does that change your beliefs about whether they would also <b>like doom metal</b>?",bebop jazz,like doom metal,other category,4,34563
50,62cb8baf4fbe7c0a2b86ee08,4941,51,"Suppose you learn someone likes listening to <b>bebop jazz</b> How much does that change your beliefs about whether they would also <b>like soul jazz</b>?",bebop jazz,like soul jazz,same category,1,21415
43,62cb8baf4fbe7c0a2b86ee08,6285,50,"Suppose you learn someone wants to take a <b>morning flight to Madrid</b>. How much does that change your beliefs about whether they would also <b>want an evening flight to the United States</b>?",morning flight to Madrid,want an evening flight to the United States,other category,5,40851
50,62cb8baf4fbe7c0a2b86ee08,7291,72,"Suppose you learn someone likes listening to <b>hard rock</b>. How much does that change your beliefs about whether they would also <b>like power metal</b>?",hard rock,like power metal,same category,2,28711
43,62cb8baf4fbe7c0a2b86ee08,4213,69,"Suppose you learn someone likes watching <b>fantasy movies</b>. How much does that change your beliefs about whether they would also <b>like science fiction movies</b>?",fantasy movies,like science fiction movies,close competitor,6,45066
50,62cb8baf4fbe7c0a2b86ee08,7567,54,"Suppose you learn someone wants to take a <b>morning flight to Madrid</b>. How much does that change your beliefs about whether they would also <b>want an evening flight to the United States</b>?",morning flight to Madrid,want an evening flight to the United States,other category,3,36283
43,62cb8baf4fbe7c0a2b86ee08,4880,54,"Suppose you learn someone likes <b>raspberry cake</b>. How much does that change your beliefs about whether they would also <b>like lemon cake</b>?",raspberry cake,like lemon cake,same category,7,49949
50,62cb8baf4fbe7c0a2b86ee08,2526,50,"Suppose you learn someone wants to take an <b>afternoon flight to Boston</b>. How much does that change your beliefs about whether they would also <b>want a morning flight to Europe</b>?",afternoon flight to Boston,want a morning flight to Europe,other category,4,38813
43,62cb8baf4fbe7c0a2b86ee08,2936,50,"Suppose you learn someone likes <b>drinking tea</b>. How much does that change your beliefs about whether they would also <b>like soft drinks</b>?",drinking tea,like soft drinks,same category,8,52887
43,62cb8baf4fbe7c0a2b86ee08,2952,44,"Suppose you learn someone likes watching <b>cartoons</b>. How much does that change your beliefs about whether they would also <b>like horror movies</b>?",cartoons,like horror movies,other category,9,55840
50,62cb8baf4fbe7c0a2b86ee08,4727,69,"Suppose you learn someone likes <b>raspberry cake</b>. How much does that change your beliefs about whether they would also <b>like chocolate cookies</b>?",raspberry cake,like chocolate cookies,same category,5,43544
70,62cb8baf4fbe7c0a2b86ee07,6195,78,"Suppose you learn someone likes <b>pasta arrabiata</b>. How much does that change your beliefs about whether they would also <b>like lasagna</b>?",pasta arrabiata,like lasagna,same category,1,55342
50,62cb8baf4fbe7c0a2b86ee08,5875,49,"Suppose you learn someone likes <b>drinking white wine</b>. How much does that change your beliefs about whether they would also <b>like coffee</b>?",drinking white wine,like coffee,other category,6,49423
43,62cb8baf4fbe7c0a2b86ee08,8689,49,"Suppose you learn someone likes listening to <b>hard rock</b>. How much does that change your beliefs about whether they would also <b>like bebop jazz</b>?",hard rock,like bebop jazz,other category,10,64532
70,62cb8baf4fbe7c0a2b86ee07,5115,0,"Suppose you learn someone likes listening to <b>bebop jazz</b> How much does that change your beliefs about whether they would also <b>like death metal</b>?",bebop jazz,like death metal,other category,2,60457
50,62cb8baf4fbe7c0a2b86ee08,2720,52,"Suppose you learn someone likes <b>drinking tea</b>. How much does that change your beliefs about whether they would also <b>like red wine</b>?",drinking tea,like red wine,other category,7,52148
50,62cb8baf4fbe7c0a2b86ee08,2751,69,"Suppose you learn someone likes watching <b>fantasy movies</b>. How much does that change your beliefs about whether they would also <b>like adventure movies</b>?",fantasy movies,like adventure movies,same category,8,54903
70,62cb8baf4fbe7c0a2b86ee07,5887,72,"Suppose you learn someone likes <b>drinking white wine</b>. How much does that change your beliefs about whether they would also <b>like red wine</b>?",drinking white wine,like red wine,close competitor,3,66345
70,62cb8baf4fbe7c0a2b86ee07,16402,87,"Suppose you learn someone wants to take an <b>afternoon flight to Boston</b>. How much does that change your beliefs about whether they would also <b>want a morning flight to Boston</b>?",afternoon flight to Boston,want a morning flight to Boston,close competitor,4,82747
70,62cb8baf4fbe7c0a2b86ee07,21741,100,"Suppose you learn someone likes listening to <b>hard rock</b>. How much does that change your beliefs about whether they would also <b>like heavy metal</b>?",hard rock,like heavy metal,same category,5,104489
70,62cb8baf4fbe7c0a2b86ee07,6199,35,"Suppose you learn someone likes watching <b>fantasy movies</b>. How much does that change your beliefs about whether they would also <b>like film noirs</b>?",fantasy movies,like film noirs,same category,6,110689
70,62cb8baf4fbe7c0a2b86ee07,9475,71,"Suppose you learn someone likes watching <b>cartoons</b>. How much does that change your beliefs about whether they would also <b>like thrillers</b>?",cartoons,like thrillers,other category,7,120166
70,62cb8baf4fbe7c0a2b86ee07,13267,0,"Suppose you learn someone wants to take a <b>morning flight to Madrid</b>. How much does that change your beliefs about whether they would also <b>want an evening flight to Paris</b>?",morning flight to Madrid,want an evening flight to Paris,same category,8,133433
50,62cb8baf4fbe7c0a2b86ee08,126791,49,"Suppose you learn someone likes <b>pasta arrabiata</b>. How much does that change your beliefs about whether they would also <b>like chocolate cookies</b>?",pasta arrabiata,like chocolate cookies,other category,9,181698
50,62cb8baf4fbe7c0a2b86ee08,2042,51,"Suppose you learn someone likes watching <b>cartoons</b>. How much does that change your beliefs about whether they would also <b>like horror movies</b>?",cartoons,like horror movies,other category,10,183744
70,62cb8baf4fbe7c0a2b86ee07,196752,0,"Suppose you learn someone likes <b>drinking tea</b>. How much does that change your beliefs about whether they would also <b>like red wine</b>?",drinking tea,like red wine,other category,9,330186
70,62cb8baf4fbe7c0a2b86ee07,2990,0,"Suppose you learn someone likes <b>raspberry cake</b>. How much does that change your beliefs about whether they would also <b>like pasta al forno</b>?",raspberry cake,like pasta al forno,other category,10,333178
15,62cb8baf4fbe7c0a2b86ee07,12635,46,"Suppose you learn someone likes <b>pasta arrabiata</b>. How much does that change your beliefs about whether they would also <b>like pizza</b>?",pasta arrabiata,like pizza,same category,1,25883
15,62cb8baf4fbe7c0a2b86ee07,5743,49,"Suppose you learn someone likes <b>drinking white wine</b>. How much does that change your beliefs about whether they would also <b>like beer</b>?",drinking white wine,like beer,same category,2,31630
15,62cb8baf4fbe7c0a2b86ee07,2326,50,"Suppose you learn someone likes <b>drinking tea</b>. How much does that change your beliefs about whether they would also <b>like soft drinks</b>?",drinking tea,like soft drinks,same category,3,33956
15,62cb8baf4fbe7c0a2b86ee07,4857,49,"Suppose you learn someone likes watching <b>cartoons</b>. How much does that change your beliefs about whether they would also <b>like thrillers</b>?",cartoons,like thrillers,other category,4,38815
15,62cb8baf4fbe7c0a2b86ee07,3776,37,"Suppose you learn someone likes listening to <b>bebop jazz</b> How much does that change your beliefs about whether they would also <b>like doom metal</b>?",bebop jazz,like doom metal,other category,5,42593
15,62cb8baf4fbe7c0a2b86ee07,8031,51,"Suppose you learn someone wants to take a <b>morning flight to Madrid</b>. How much does that change your beliefs about whether they would also <b>want an evening flight to Paris</b>?",morning flight to Madrid,want an evening flight to Paris,same category,6,50625
15,62cb8baf4fbe7c0a2b86ee07,9153,64,"Suppose you learn someone likes <b>raspberry cake</b>. How much does that change your beliefs about whether they would also <b>like raspberry pie</b>?",raspberry cake,like raspberry pie,close competitor,7,59780
15,62cb8baf4fbe7c0a2b86ee07,5118,47,"Suppose you learn someone wants to take an <b>afternoon flight to Boston</b>. How much does that change your beliefs about whether they would also <b>want an afternoon flight to Europe</b>?",afternoon flight to Boston,want an afternoon flight to Europe,other category,8,64898
15,62cb8baf4fbe7c0a2b86ee07,2771,50,"Suppose you learn someone likes watching <b>fantasy movies</b>. How much does that change your beliefs about whether they would also <b>like animation films</b>?",fantasy movies,like animation films,other category,9,67672
15,62cb8baf4fbe7c0a2b86ee07,4171,52,"Suppose you learn someone likes listening to <b>hard rock</b>. How much does that change your beliefs about whether they would also <b>like dixieland</b>?",hard rock,like dixieland,other category,10,71844
65,62cb8baf4fbe7c0a2b86ee08,10610,71,"Suppose you learn someone likes <b>raspberry cake</b>. How much does that change your beliefs about whether they would also <b>like chocolate cookies</b>?",raspberry cake,like chocolate cookies,same category,1,34685
65,62cb8baf4fbe7c0a2b86ee08,3760,33,"Suppose you learn someone likes listening to <b>hard rock</b>. How much does that change your beliefs about whether they would also <b>like bebop jazz</b>?",hard rock,like bebop jazz,other category,2,38451
65,62cb8baf4fbe7c0a2b86ee08,3891,83,"Suppose you learn someone likes watching <b>fantasy movies</b>. How much does that change your beliefs about whether they would also <b>like animation films</b>?",fantasy movies,like animation films,other category,3,42348
65,62cb8baf4fbe7c0a2b86ee08,4505,39,"Suppose you learn someone likes <b>drinking tea</b>. How much does that change your beliefs about whether they would also <b>like beer</b>?",drinking tea,like beer,other category,4,46861
65,62cb8baf4fbe7c0a2b86ee08,3807,19,"Suppose you learn someone likes <b>drinking white wine</b>. How much does that change your beliefs about whether they would also <b>like red wine</b>?",drinking white wine,like red wine,close competitor,5,50675
65,62cb8baf4fbe7c0a2b86ee08,3697,52,"Suppose you learn someone likes <b>pasta arrabiata</b>. How much does that change your beliefs about whether they would also <b>like lemon cake</b>?",pasta arrabiata,like lemon cake,other category,6,54376
65,62cb8baf4fbe7c0a2b86ee08,5442,66,"Suppose you learn someone wants to take a <b>morning flight to Madrid</b>. How much does that change your beliefs about whether they would also <b>want a morning flight to the United States</b>?",morning flight to Madrid,want a morning flight to the United States,other category,7,59824
49,62cb8baf4fbe7c0a2b86ee08,40015,31,"Suppose you learn someone likes listening to <b>hard rock</b>. How much does that change your beliefs about whether they would also <b>like bebop jazz</b>?",hard rock,like bebop jazz,other category,1,129395
65,62cb8baf4fbe7c0a2b86ee08,3913,32,"Suppose you learn someone likes watching <b>cartoons</b>. How much does that change your beliefs about whether they would also <b>like thrillers</b>?",cartoons,like thrillers,other category,8,63744
72,62cb8baf4fbe7c0a2b86ee07,8363,93,"Suppose you learn someone likes <b>raspberry cake</b>. How much does that change your beliefs about whether they would also <b>like raspberry pie</b>?",raspberry cake,like raspberry pie,close competitor,1,92732
65,62cb8baf4fbe7c0a2b86ee08,3437,48,"Suppose you learn someone wants to take an <b>afternoon flight to Boston</b>. How much does that change your beliefs about whether they would also <b>want an afternoon flight to San Francisco</b>?",afternoon flight to Boston,want an afternoon flight to San Francisco,same category,9,67185
65,62cb8baf4fbe7c0a2b86ee08,3528,55,"Suppose you learn someone likes listening to <b>bebop jazz</b> How much does that change your beliefs about whether they would also <b>like cool jazz</b>?",bebop jazz,like cool jazz,same category,10,70722
89,62cb8baf4fbe7c0a2b86ee08,47464,61,"Suppose you learn someone likes watching <b>fantasy movies</b>. How much does that change your beliefs about whether they would also <b>like cartoons</b>?",fantasy movies,like cartoons,other category,1,99478
72,62cb8baf4fbe7c0a2b86ee07,11069,71,"Suppose you learn someone likes listening to <b>hard rock</b>. How much does that change your beliefs about whether they would also <b>like bebop jazz</b>?",hard rock,like bebop jazz,other category,2,103804
89,62cb8baf4fbe7c0a2b86ee08,5047,50,"Suppose you learn someone likes <b>drinking tea</b>. How much does that change your beliefs about whether they would also <b>like beer</b>?",drinking tea,like beer,other category,2,104527
72,62cb8baf4fbe7c0a2b86ee07,6565,86,"Suppose you learn someone likes watching <b>cartoons</b>. How much does that change your beliefs about whether they would also <b>like comedies</b>?",cartoons,like comedies,same category,3,110372
89,62cb8baf4fbe7c0a2b86ee08,8268,20,"Suppose you learn someone likes listening to <b>bebop jazz</b> How much does that change your beliefs about whether they would also <b>like doom metal</b>?",bebop jazz,like doom metal,other category,3,112797
72,62cb8baf4fbe7c0a2b86ee07,7430,68,"Suppose you learn someone likes watching <b>fantasy movies</b>. How much does that change your beliefs about whether they would also <b>like adventure movies</b>?",fantasy movies,like adventure movies,same category,4,117805
89,62cb8baf4fbe7c0a2b86ee08,4749,50,"Suppose you learn someone likes <b>drinking white wine</b>. How much does that change your beliefs about whether they would also <b>like coffee</b>?",drinking white wine,like coffee,other category,4,117548
49,62cb8baf4fbe7c0a2b86ee08,32947,86,"Suppose you learn someone wants to take an <b>afternoon flight to Boston</b>. How much does that change your beliefs about whether they would also <b>want an afternoon flight to Europe</b>?",afternoon flight to Boston,want an afternoon flight to Europe,other category,2,162346
72,62cb8baf4fbe7c0a2b86ee07,8590,75,"Suppose you learn someone wants to take an <b>afternoon flight to Boston</b>. How much does that change your beliefs about whether they would also <b>want a morning flight to Boston</b>?",afternoon flight to Boston,want a morning flight to Boston,close competitor,5,126397
89,62cb8baf4fbe7c0a2b86ee08,12742,50,"Suppose you learn someone likes watching <b>cartoons</b>. How much does that change your beliefs about whether they would also <b>like thrillers</b>?",cartoons,like thrillers,other category,5,130291
72,62cb8baf4fbe7c0a2b86ee07,11765,34,"Suppose you learn someone likes <b>drinking white wine</b>. How much does that change your beliefs about whether they would also <b>like whiskey</b>?",drinking white wine,like whiskey,same category,6,138165
89,62cb8baf4fbe7c0a2b86ee08,4983,62,"Suppose you learn someone likes <b>raspberry cake</b>. How much does that change your beliefs about whether they would also <b>like lemon cake</b>?",raspberry cake,like lemon cake,same category,6,135277
72,62cb8baf4fbe7c0a2b86ee07,12086,70,"Suppose you learn someone wants to take a <b>morning flight to Madrid</b>. How much does that change your beliefs about whether they would also <b>want a morning flight to Berlin</b>?",morning flight to Madrid,want a morning flight to Berlin,same category,7,150253
72,62cb8baf4fbe7c0a2b86ee07,6357,89,"Suppose you learn someone likes <b>pasta arrabiata</b>. How much does that change your beliefs about whether they would also <b>like lasagna</b>?",pasta arrabiata,like lasagna,same category,8,156612
72,62cb8baf4fbe7c0a2b86ee07,5806,11,"Suppose you learn someone likes listening to <b>bebop jazz</b> How much does that change your beliefs about whether they would also <b>like doom metal</b>?",bebop jazz,like doom metal,other category,9,162421
89,62cb8baf4fbe7c0a2b86ee08,29826,50,"Suppose you learn someone wants to take an <b>afternoon flight to Boston</b>. How much does that change your beliefs about whether they would also <b>want a morning flight to Boston</b>?",afternoon flight to Boston,want a morning flight to Boston,close competitor,7,165104
72,62cb8baf4fbe7c0a2b86ee07,8525,39,"Suppose you learn someone likes <b>drinking tea</b>. How much does that change your beliefs about whether they would also <b>like beer</b>?",drinking tea,like beer,other category,10,170948
49,62cb8baf4fbe7c0a2b86ee08,47475,51,"Suppose you learn someone likes listening to <b>bebop jazz</b> How much does that change your beliefs about whether they would also <b>like doom metal</b>?",bebop jazz,like doom metal,other category,3,209825
89,62cb8baf4fbe7c0a2b86ee08,20216,50,"Suppose you learn someone wants to take a <b>morning flight to Madrid</b>. How much does that change your beliefs about whether they would also <b>want an evening flight to the United States</b>?",morning flight to Madrid,want an evening flight to the United States,other category,8,185321
89,62cb8baf4fbe7c0a2b86ee08,4845,50,"Suppose you learn someone likes <b>pasta arrabiata</b>. How much does that change your beliefs about whether they would also <b>like pizza</b>?",pasta arrabiata,like pizza,same category,9,190168
89,62cb8baf4fbe7c0a2b86ee08,5662,50,"Suppose you learn someone likes listening to <b>hard rock</b>. How much does that change your beliefs about whether they would also <b>like dixieland</b>?",hard rock,like dixieland,other category,10,195831
49,62cb8baf4fbe7c0a2b86ee08,29629,50,"Suppose you learn someone likes <b>raspberry cake</b>. How much does that change your beliefs about whether they would also <b>like cheese sandwiches</b>?",raspberry cake,like cheese sandwiches,other category,4,239460
67,62cb8baf4fbe7c0a2b86ee08,10789,75,"Suppose you learn someone wants to take a <b>morning flight to Madrid</b>. How much does that change your beliefs about whether they would also <b>want a morning flight to the United States</b>?",morning flight to Madrid,want a morning flight to the United States,other category,1,20914
67,62cb8baf4fbe7c0a2b86ee08,10969,60,"Suppose you learn someone likes watching <b>fantasy movies</b>. How much does that change your beliefs about whether they would also <b>like animation films</b>?",fantasy movies,like animation films,other category,2,31884
67,62cb8baf4fbe7c0a2b86ee08,4496,50,"Suppose you learn someone likes <b>raspberry cake</b>. How much does that change your beliefs about whether they would also <b>like lemon cake</b>?",raspberry cake,like lemon cake,same category,3,36381
49,62cb8baf4fbe7c0a2b86ee08,44297,37,"Suppose you learn someone wants to take a <b>morning flight to Madrid</b>. How much does that change your beliefs about whether they would also <b>want an evening flight to the United States</b>?",morning flight to Madrid,want an evening flight to the United States,other category,5,283762
67,62cb8baf4fbe7c0a2b86ee08,5089,67,"Suppose you learn someone likes listening to <b>bebop jazz</b> How much does that change your beliefs about whether they would also <b>like cool jazz</b>?",bebop jazz,like cool jazz,same category,4,41472
67,62cb8baf4fbe7c0a2b86ee08,4411,20,"Suppose you learn someone likes <b>drinking white wine</b>. How much does that change your beliefs about whether they would also <b>like whiskey</b>?",drinking white wine,like whiskey,same category,5,45884
67,62cb8baf4fbe7c0a2b86ee08,4285,51,"Suppose you learn someone wants to take an <b>afternoon flight to Boston</b>. How much does that change your beliefs about whether they would also <b>want a morning flight to Europe</b>?",afternoon flight to Boston,want a morning flight to Europe,other category,6,50170
67,62cb8baf4fbe7c0a2b86ee08,6224,24,"Suppose you learn someone likes watching <b>cartoons</b>. How much does that change your beliefs about whether they would also <b>like horror movies</b>?",cartoons,like horror movies,other category,7,56396
67,62cb8baf4fbe7c0a2b86ee08,5657,51,"Suppose you learn someone likes <b>drinking tea</b>. How much does that change your beliefs about whether they would also <b>like beer</b>?",drinking tea,like beer,other category,8,62055
67,62cb8baf4fbe7c0a2b86ee08,5019,31,"Suppose you learn someone likes listening to <b>hard rock</b>. How much does that change your beliefs about whether they would also <b>like dixieland</b>?",hard rock,like dixieland,other category,9,67075
67,62cb8baf4fbe7c0a2b86ee08,2969,50,"Suppose you learn someone likes <b>pasta arrabiata</b>. How much does that change your beliefs about whether they would also <b>like chocolate cookies</b>?",pasta arrabiata,like chocolate cookies,other category,10,70045
49,62cb8baf4fbe7c0a2b86ee08,40949,50,"Suppose you learn someone likes <b>drinking white wine</b>. How much does that change your beliefs about whether they would also <b>like red wine</b>?",drinking white wine,like red wine,close competitor,6,324714
23,62cb8baf4fbe7c0a2b86ee08,7772,64,"Suppose you learn someone wants to take an <b>afternoon flight to Boston</b>. How much does that change your beliefs about whether they would also <b>want an afternoon flight to San Francisco</b>?",afternoon flight to Boston,want an afternoon flight to San Francisco,same category,1,28378
30,62cb8baf4fbe7c0a2b86ee07,21137,50,"Suppose you learn someone likes <b>drinking tea</b>. How much does that change your beliefs about whether they would also <b>like beer</b>?",drinking tea,like beer,other category,1,45877
23,62cb8baf4fbe7c0a2b86ee08,8938,44,"Suppose you learn someone likes listening to <b>bebop jazz</b> How much does that change your beliefs about whether they would also <b>like death metal</b>?",bebop jazz,like death metal,other category,2,37318
23,62cb8baf4fbe7c0a2b86ee08,3916,73,"Suppose you learn someone wants to take a <b>morning flight to Madrid</b>. How much does that change your beliefs about whether they would also <b>want a morning flight to Berlin</b>?",morning flight to Madrid,want a morning flight to Berlin,same category,3,41236
49,62cb8baf4fbe7c0a2b86ee08,15879,50,"Suppose you learn someone likes <b>drinking tea</b>. How much does that change your beliefs about whether they would also <b>like soda</b>?",drinking tea,like soda,same category,7,340598
23,62cb8baf4fbe7c0a2b86ee08,4150,64,"Suppose you learn someone likes <b>raspberry cake</b>. How much does that change your beliefs about whether they would also <b>like chocolate cookies</b>?",raspberry cake,like chocolate cookies,same category,4,45388
30,62cb8baf4fbe7c0a2b86ee07,15838,10,"Suppose you learn someone likes watching <b>fantasy movies</b>. How much does that change your beliefs about whether they would also <b>like film noirs</b>?",fantasy movies,like film noirs,same category,2,61717
23,62cb8baf4fbe7c0a2b86ee08,3563,75,"Suppose you learn someone likes watching <b>fantasy movies</b>. How much does that change your beliefs about whether they would also <b>like animation films</b>?",fantasy movies,like animation films,other category,5,48953
23,62cb8baf4fbe7c0a2b86ee08,3910,40,"Suppose you learn someone likes listening to <b>hard rock</b>. How much does that change your beliefs about whether they would also <b>like dixieland</b>?",hard rock,like dixieland,other category,6,52866
30,62cb8baf4fbe7c0a2b86ee07,10976,74,"Suppose you learn someone likes listening to <b>hard rock</b>. How much does that change your beliefs about whether they would also <b>like classic rock</b>?",hard rock,like classic rock,close competitor,3,72695
23,62cb8baf4fbe7c0a2b86ee08,5799,66,"Suppose you learn someone likes watching <b>cartoons</b>. How much does that change your beliefs about whether they would also <b>like musicals</b>?",cartoons,like musicals,same category,7,58668
23,62cb8baf4fbe7c0a2b86ee08,3650,91,"Suppose you learn someone likes <b>drinking white wine</b>. How much does that change your beliefs about whether they would also <b>like red wine</b>?",drinking white wine,like red wine,close competitor,8,62320
49,62cb8baf4fbe7c0a2b86ee08,22912,33,"Suppose you learn someone likes watching <b>fantasy movies</b>. How much does that change your beliefs about whether they would also <b>like film noirs</b>?",fantasy movies,like film noirs,same category,8,363515
23,62cb8baf4fbe7c0a2b86ee08,4050,35,"Suppose you learn someone likes <b>pasta arrabiata</b>. How much does that change your beliefs about whether they would also <b>like lemon cake</b>?",pasta arrabiata,like lemon cake,other category,9,66372
23,62cb8baf4fbe7c0a2b86ee08,4222,58,"Suppose you learn someone likes <b>drinking tea</b>. How much does that change your beliefs about whether they would also <b>like coffee</b>?",drinking tea,like coffee,close competitor,10,70596
30,62cb8baf4fbe7c0a2b86ee07,16958,18,"Suppose you learn someone wants to take a <b>morning flight to Madrid</b>. How much does that change your beliefs about whether they would also <b>want a morning flight to the United States</b>?",morning flight to Madrid,want a morning flight to the United States,other category,4,89655
49,62cb8baf4fbe7c0a2b86ee08,19732,85,"Suppose you learn someone likes <b>pasta arrabiata</b>. How much does that change your beliefs about whether they would also <b>like pasta al forno</b>?",pasta arrabiata,like pasta al forno,close competitor,9,383251
30,62cb8baf4fbe7c0a2b86ee07,11123,48,"Suppose you learn someone likes <b>drinking white wine</b>. How much does that change your beliefs about whether they would also <b>like coffee</b>?",drinking white wine,like coffee,other category,5,100781
105,62cb8baf4fbe7c0a2b86ee08,9263,50,"Suppose you learn someone wants to take an <b>afternoon flight to Boston</b>. How much does that change your beliefs about whether they would also <b>want an afternoon flight to Europe</b>?",afternoon flight to Boston,want an afternoon flight to Europe,other category,1,29290
30,62cb8baf4fbe7c0a2b86ee07,8190,88,"Suppose you learn someone likes listening to <b>bebop jazz</b> How much does that change your beliefs about whether they would also <b>like cool jazz</b>?",bebop jazz,like cool jazz,same category,6,108973
30,62cb8baf4fbe7c0a2b86ee07,6803,97,"Suppose you learn someone likes watching <b>cartoons</b>. How much does that change your beliefs about whether they would also <b>like animated films</b>?",cartoons,like animated films,close competitor,7,115777
105,62cb8baf4fbe7c0a2b86ee08,8133,61,"Suppose you learn someone wants to take a <b>morning flight to Madrid</b>. How much does that change your beliefs about whether they would also <b>want a morning flight to the United States</b>?",morning flight to Madrid,want a morning flight to the United States,other category,2,37430
105,62cb8baf4fbe7c0a2b86ee08,5839,48,"Suppose you learn someone likes <b>drinking tea</b>. How much does that change your beliefs about whether they would also <b>like soda</b>?",drinking tea,like soda,same category,3,43279
49,62cb8baf4fbe7c0a2b86ee08,24279,74,"Suppose you learn someone likes watching <b>cartoons</b>. How much does that change your beliefs about whether they would also <b>like comedies</b>?",cartoons,like comedies,same category,10,407535
105,62cb8baf4fbe7c0a2b86ee08,4775,85,"Suppose you learn someone likes watching <b>cartoons</b>. How much does that change your beliefs about whether they would also <b>like animated films</b>?",cartoons,like animated films,close competitor,4,48067
105,62cb8baf4fbe7c0a2b86ee08,3922,46,"Suppose you learn someone likes <b>pasta arrabiata</b>. How much does that change your beliefs about whether they would also <b>like chocolate cookies</b>?",pasta arrabiata,like chocolate cookies,other category,5,52001
105,62cb8baf4fbe7c0a2b86ee08,4541,41,"Suppose you learn someone likes listening to <b>bebop jazz</b> How much does that change your beliefs about whether they would also <b>like cool jazz</b>?",bebop jazz,like cool jazz,same category,6,56551
105,62cb8baf4fbe7c0a2b86ee08,3363,46,"Suppose you learn someone likes <b>drinking white wine</b>. How much does that change your beliefs about whether they would also <b>like beer</b>?",drinking white wine,like beer,same category,7,59926
105,62cb8baf4fbe7c0a2b86ee08,4237,65,"Suppose you learn someone likes listening to <b>hard rock</b>. How much does that change your beliefs about whether they would also <b>like power metal</b>?",hard rock,like power metal,same category,8,64170
105,62cb8baf4fbe7c0a2b86ee08,4351,82,"Suppose you learn someone likes watching <b>fantasy movies</b>. How much does that change your beliefs about whether they would also <b>like animation films</b>?",fantasy movies,like animation films,other category,9,68530
105,62cb8baf4fbe7c0a2b86ee08,3897,49,"Suppose you learn someone likes <b>raspberry cake</b>. How much does that change your beliefs about whether they would also <b>like pasta al forno</b>?",raspberry cake,like pasta al forno,other category,10,72438
34,62cb8baf4fbe7c0a2b86ee07,14955,83,"Suppose you learn someone likes watching <b>fantasy movies</b>. How much does that change your beliefs about whether they would also <b>like science fiction movies</b>?",fantasy movies,like science fiction movies,close competitor,1,52498
30,62cb8baf4fbe7c0a2b86ee07,37471,37,"Suppose you learn someone wants to take an <b>afternoon flight to Boston</b>. How much does that change your beliefs about whether they would also <b>want an afternoon flight to San Francisco</b>?",afternoon flight to Boston,want an afternoon flight to San Francisco,same category,8,153249
30,62cb8baf4fbe7c0a2b86ee07,12997,75,"Suppose you learn someone likes <b>pasta arrabiata</b>. How much does that change your beliefs about whether they would also <b>like pasta al forno</b>?",pasta arrabiata,like pasta al forno,close competitor,9,166249
34,62cb8baf4fbe7c0a2b86ee07,17544,50,"Suppose you learn someone likes watching <b>cartoons</b>. How much does that change your beliefs about whether they would also <b>like thrillers</b>?",cartoons,like thrillers,other category,2,70043
30,62cb8baf4fbe7c0a2b86ee07,7598,50,"Suppose you learn someone likes <b>raspberry cake</b>. How much does that change your beliefs about whether they would also <b>like cheese sandwiches</b>?",raspberry cake,like cheese sandwiches,other category,10,173849
34,62cb8baf4fbe7c0a2b86ee07,11519,50,"Suppose you learn someone likes <b>raspberry cake</b>. How much does that change your beliefs about whether they would also <b>like pasta al forno</b>?",raspberry cake,like pasta al forno,other category,3,81563
34,62cb8baf4fbe7c0a2b86ee07,7543,89,"Suppose you learn someone likes listening to <b>hard rock</b>. How much does that change your beliefs about whether they would also <b>like heavy metal</b>?",hard rock,like heavy metal,same category,4,89107
32,62cb8baf4fbe7c0a2b86ee08,4864,0,"Suppose you learn someone wants to take an <b>afternoon flight to Boston</b>. How much does that change your beliefs about whether they would also <b>want an evening flight to Los Angeles</b>?",afternoon flight to Boston,want an evening flight to Los Angeles,same category,1,12632
34,62cb8baf4fbe7c0a2b86ee07,14527,92,"Suppose you learn someone wants to take a <b>morning flight to Madrid</b>. How much does that change your beliefs about whether they would also <b>want an afternoon flight to Madrid</b>?",morning flight to Madrid,want an afternoon flight to Madrid,close competitor,5,103635
32,62cb8baf4fbe7c0a2b86ee08,4640,49,"Suppose you learn someone likes watching <b>fantasy movies</b>. How much does that change your beliefs about whether they would also <b>like film noirs</b>?",fantasy movies,like film noirs,same category,2,17274
91,62cb8baf4fbe7c0a2b86ee08,15111,0,"Suppose you learn someone likes <b>drinking tea</b>. How much does that change your beliefs about whether they would also <b>like coffee</b>?",drinking tea,like coffee,close competitor,1,41381
32,62cb8baf4fbe7c0a2b86ee08,6045,58,"Suppose you learn someone likes <b>drinking tea</b>. How much does that change your beliefs about whether they would also <b>like coffee</b>?",drinking tea,like coffee,close competitor,3,23319
34,62cb8baf4fbe7c0a2b86ee07,9319,50,"Suppose you learn someone likes listening to <b>bebop jazz</b> How much does that change your beliefs about whether they would also <b>like death metal</b>?",bebop jazz,like death metal,other category,6,112955
32,62cb8baf4fbe7c0a2b86ee08,3528,50,"Suppose you learn someone likes listening to <b>hard rock</b>. How much does that change your beliefs about whether they would also <b>like bebop jazz</b>?",hard rock,like bebop jazz,other category,4,26848
91,62cb8baf4fbe7c0a2b86ee08,10079,22,"Suppose you learn someone likes <b>drinking white wine</b>. How much does that change your beliefs about whether they would also <b>like red wine</b>?",drinking white wine,like red wine,close competitor,2,51461
32,62cb8baf4fbe7c0a2b86ee08,3393,10,"Suppose you learn someone wants to take a <b>morning flight to Madrid</b>. How much does that change your beliefs about whether they would also <b>want an evening flight to Paris</b>?",morning flight to Madrid,want an evening flight to Paris,same category,5,30241
32,62cb8baf4fbe7c0a2b86ee08,2711,50,"Suppose you learn someone likes <b>drinking white wine</b>. How much does that change your beliefs about whether they would also <b>like soft drinks</b>?",drinking white wine,like soft drinks,other category,6,32953
32,62cb8baf4fbe7c0a2b86ee08,2870,81,"Suppose you learn someone likes listening to <b>bebop jazz</b> How much does that change your beliefs about whether they would also <b>like soul jazz</b>?",bebop jazz,like soul jazz,same category,7,35824
91,62cb8baf4fbe7c0a2b86ee08,10250,54,"Suppose you learn someone likes <b>pasta arrabiata</b>. How much does that change your beliefs about whether they would also <b>like lemon cake</b>?",pasta arrabiata,like lemon cake,other category,3,61713
32,62cb8baf4fbe7c0a2b86ee08,3190,72,"Suppose you learn someone likes <b>raspberry cake</b>. How much does that change your beliefs about whether they would also <b>like lemon cake</b>?",raspberry cake,like lemon cake,same category,8,39016
32,62cb8baf4fbe7c0a2b86ee08,2515,100,"Suppose you learn someone likes watching <b>cartoons</b>. How much does that change your beliefs about whether they would also <b>like animated films</b>?",cartoons,like animated films,close competitor,9,41532
32,62cb8baf4fbe7c0a2b86ee08,2461,51,"Suppose you learn someone likes <b>pasta arrabiata</b>. How much does that change your beliefs about whether they would also <b>like chocolate cookies</b>?",pasta arrabiata,like chocolate cookies,other category,10,43994
91,62cb8baf4fbe7c0a2b86ee08,14230,38,"Suppose you learn someone wants to take an <b>afternoon flight to Boston</b>. How much does that change your beliefs about whether they would also <b>want an evening flight to Los Angeles</b>?",afternoon flight to Boston,want an evening flight to Los Angeles,same category,4,75946
34,62cb8baf4fbe7c0a2b86ee07,28845,50,"Suppose you learn someone wants to take an <b>afternoon flight to Boston</b>. How much does that change your beliefs about whether they would also <b>want a morning flight to Europe</b>?",afternoon flight to Boston,want a morning flight to Europe,other category,7,141801
91,62cb8baf4fbe7c0a2b86ee08,7583,80,"Suppose you learn someone wants to take a <b>morning flight to Madrid</b>. How much does that change your beliefs about whether they would also <b>want a morning flight to Berlin</b>?",morning flight to Madrid,want a morning flight to Berlin,same category,5,83533
34,62cb8baf4fbe7c0a2b86ee07,6045,50,"Suppose you learn someone likes <b>pasta arrabiata</b>. How much does that change your beliefs about whether they would also <b>like lemon cake</b>?",pasta arrabiata,like lemon cake,other category,8,147847
91,62cb8baf4fbe7c0a2b86ee08,6565,59,"Suppose you learn someone likes listening to <b>bebop jazz</b> How much does that change your beliefs about whether they would also <b>like death metal</b>?",bebop jazz,like death metal,other category,6,90102
34,62cb8baf4fbe7c0a2b86ee07,9951,50,"Suppose you learn someone likes <b>drinking white wine</b>. How much does that change your beliefs about whether they would also <b>like coffee</b>?",drinking white wine,like coffee,other category,9,157799
91,62cb8baf4fbe7c0a2b86ee08,8358,100,"Suppose you learn someone likes listening to <b>hard rock</b>. How much does that change your beliefs about whether they would also <b>like heavy metal</b>?",hard rock,like heavy metal,same category,7,98462
34,62cb8baf4fbe7c0a2b86ee07,5399,50,"Suppose you learn someone likes <b>drinking tea</b>. How much does that change your beliefs about whether they would also <b>like soda</b>?",drinking tea,like soda,same category,10,163199
91,62cb8baf4fbe7c0a2b86ee08,6347,94,"Suppose you learn someone likes watching <b>fantasy movies</b>. How much does that change your beliefs about whether they would also <b>like cartoons</b>?",fantasy movies,like cartoons,other category,8,104812
36,62cb8baf4fbe7c0a2b86ee08,12471,100,"Suppose you learn someone likes watching <b>cartoons</b>. How much does that change your beliefs about whether they would also <b>like animated films</b>?",cartoons,like animated films,close competitor,1,39086
91,62cb8baf4fbe7c0a2b86ee08,6889,69,"Suppose you learn someone likes watching <b>cartoons</b>. How much does that change your beliefs about whether they would also <b>like comedies</b>?",cartoons,like comedies,same category,9,111703
91,62cb8baf4fbe7c0a2b86ee08,4275,100,"Suppose you learn someone likes <b>raspberry cake</b>. How much does that change your beliefs about whether they would also <b>like raspberry pie</b>?",raspberry cake,like raspberry pie,close competitor,10,115981
36,62cb8baf4fbe7c0a2b86ee08,21236,50,"Suppose you learn someone wants to take an <b>afternoon flight to Boston</b>. How much does that change your beliefs about whether they would also <b>want an afternoon flight to San Francisco</b>?",afternoon flight to Boston,want an afternoon flight to San Francisco,same category,2,60323
36,62cb8baf4fbe7c0a2b86ee08,6843,54,"Suppose you learn someone likes watching <b>fantasy movies</b>. How much does that change your beliefs about whether they would also <b>like animation films</b>?",fantasy movies,like animation films,other category,3,67167
84,62cb8baf4fbe7c0a2b86ee08,17632,16,"Suppose you learn someone likes watching <b>cartoons</b>. How much does that change your beliefs about whether they would also <b>like thrillers</b>?",cartoons,like thrillers,other category,1,37165
55,62cb8baf4fbe7c0a2b86ee08,23568,64,"Suppose you learn someone likes <b>drinking tea</b>. How much does that change your beliefs about whether they would also <b>like red wine</b>?",drinking tea,like red wine,other category,1,56287
36,62cb8baf4fbe7c0a2b86ee08,8081,50,"Suppose you learn someone likes <b>pasta arrabiata</b>. How much does that change your beliefs about whether they would also <b>like lemon cake</b>?",pasta arrabiata,like lemon cake,other category,4,75249
6,62cb8baf4fbe7c0a2b86ee07,4844,77,"Suppose you learn someone likes listening to <b>bebop jazz</b> How much does that change your beliefs about whether they would also <b>like hard bop jazz</b>?",bebop jazz,like hard bop jazz,close competitor,1,13761
84,62cb8baf4fbe7c0a2b86ee08,11237,73,"Suppose you learn someone likes <b>drinking white wine</b>. How much does that change your beliefs about whether they would also <b>like beer</b>?",drinking white wine,like beer,same category,2,48404
36,62cb8baf4fbe7c0a2b86ee08,6343,50,"Suppose you learn someone likes <b>raspberry cake</b>. How much does that change your beliefs about whether they would also <b>like cheese sandwiches</b>?",raspberry cake,like cheese sandwiches,other category,5,81593
6,62cb8baf4fbe7c0a2b86ee07,7686,26,"Suppose you learn someone wants to take an <b>afternoon flight to Boston</b>. How much does that change your beliefs about whether they would also <b>want a morning flight to Europe</b>?",afternoon flight to Boston,want a morning flight to Europe,other category,2,21449
36,62cb8baf4fbe7c0a2b86ee08,6911,34,"Suppose you learn someone likes <b>drinking tea</b>. How much does that change your beliefs about whether they would also <b>like coffee</b>?",drinking tea,like coffee,close competitor,6,88505
84,62cb8baf4fbe7c0a2b86ee08,11097,88,"Suppose you learn someone likes watching <b>fantasy movies</b>. How much does that change your beliefs about whether they would also <b>like science fiction movies</b>?",fantasy movies,like science fiction movies,close competitor,3,59502
55,62cb8baf4fbe7c0a2b86ee08,21402,51,"Suppose you learn someone likes listening to <b>bebop jazz</b> How much does that change your beliefs about whether they would also <b>like cool jazz</b>?",bebop jazz,like cool jazz,same category,2,77695
6,62cb8baf4fbe7c0a2b86ee07,8199,50,"Suppose you learn someone likes <b>drinking white wine</b>. How much does that change your beliefs about whether they would also <b>like whiskey</b>?",drinking white wine,like whiskey,same category,3,29649
84,62cb8baf4fbe7c0a2b86ee08,5468,94,"Suppose you learn someone likes <b>pasta arrabiata</b>. How much does that change your beliefs about whether they would also <b>like lasagna</b>?",pasta arrabiata,like lasagna,same category,4,64972
6,62cb8baf4fbe7c0a2b86ee07,4534,50,"Suppose you learn someone likes <b>raspberry cake</b>. How much does that change your beliefs about whether they would also <b>like cheese sandwiches</b>?",raspberry cake,like cheese sandwiches,other category,4,34185
36,62cb8baf4fbe7c0a2b86ee08,10335,36,"Suppose you learn someone likes <b>drinking white wine</b>. How much does that change your beliefs about whether they would also <b>like beer</b>?",drinking white wine,like beer,same category,7,98841
84,62cb8baf4fbe7c0a2b86ee08,4417,88,"Suppose you learn someone likes listening to <b>bebop jazz</b> How much does that change your beliefs about whether they would also <b>like soul jazz</b>?",bebop jazz,like soul jazz,same category,5,69391
6,62cb8baf4fbe7c0a2b86ee07,4662,48,"Suppose you learn someone likes <b>drinking tea</b>. How much does that change your beliefs about whether they would also <b>like beer</b>?",drinking tea,like beer,other category,5,38849
36,62cb8baf4fbe7c0a2b86ee08,6029,43,"Suppose you learn someone likes listening to <b>hard rock</b>. How much does that change your beliefs about whether they would also <b>like bebop jazz</b>?",hard rock,like bebop jazz,other category,8,104871
6,62cb8baf4fbe7c0a2b86ee07,4548,50,"Suppose you learn someone likes <b>pasta arrabiata</b>. How much does that change your beliefs about whether they would also <b>like chocolate cookies</b>?",pasta arrabiata,like chocolate cookies,other category,6,43401
102,62cb8baf4fbe7c0a2b86ee08,12669,75,"Suppose you learn someone likes watching <b>fantasy movies</b>. How much does that change your beliefs about whether they would also <b>like adventure movies</b>?",fantasy movies,like adventure movies,same category,1,42032
55,62cb8baf4fbe7c0a2b86ee08,19238,27,"Suppose you learn someone wants to take a <b>morning flight to Madrid</b>. How much does that change your beliefs about whether they would also <b>want a morning flight to Berlin</b>?",morning flight to Madrid,want a morning flight to Berlin,same category,3,96938
6,62cb8baf4fbe7c0a2b86ee07,5950,40,"Suppose you learn someone wants to take a <b>morning flight to Madrid</b>. How much does that change your beliefs about whether they would also <b>want an evening flight to the United States</b>?",morning flight to Madrid,want an evening flight to the United States,other category,7,49352
12,62cb8baf4fbe7c0a2b86ee08,9562,50,"Suppose you learn someone likes <b>drinking white wine</b>. How much does that change your beliefs about whether they would also <b>like whiskey</b>?",drinking white wine,like whiskey,same category,1,27872
6,62cb8baf4fbe7c0a2b86ee07,5583,16,"Suppose you learn someone likes watching <b>cartoons</b>. How much does that change your beliefs about whether they would also <b>like musicals</b>?",cartoons,like musicals,same category,8,54937
36,62cb8baf4fbe7c0a2b86ee08,14319,67,"Suppose you learn someone wants to take a <b>morning flight to Madrid</b>. How much does that change your beliefs about whether they would also <b>want an afternoon flight to Madrid</b>?",morning flight to Madrid,want an afternoon flight to Madrid,close competitor,9,119191
55,62cb8baf4fbe7c0a2b86ee08,8217,16,"Suppose you learn someone likes <b>drinking white wine</b>. How much does that change your beliefs about whether they would also <b>like soft drinks</b>?",drinking white wine,like soft drinks,other category,4,105159
84,62cb8baf4fbe7c0a2b86ee08,20644,80,"Suppose you learn someone wants to take a <b>morning flight to Madrid</b>. How much does that change your beliefs about whether they would also <b>want a morning flight to the United States</b>?",morning flight to Madrid,want a morning flight to the United States,other category,6,90036
12,62cb8baf4fbe7c0a2b86ee08,8316,50,"Suppose you learn someone likes <b>raspberry cake</b>. How much does that change your beliefs about whether they would also <b>like chocolate cookies</b>?",raspberry cake,like chocolate cookies,same category,2,36192
6,62cb8baf4fbe7c0a2b86ee07,4838,64,"Suppose you learn someone likes listening to <b>hard rock</b>. How much does that change your beliefs about whether they would also <b>like power metal</b>?",hard rock,like power metal,same category,9,59777
36,62cb8baf4fbe7c0a2b86ee08,6703,36,"Suppose you learn someone likes listening to <b>bebop jazz</b> How much does that change your beliefs about whether they would also <b>like death metal</b>?",bebop jazz,like death metal,other category,10,125895
84,62cb8baf4fbe7c0a2b86ee08,5618,83,"Suppose you learn someone wants to take an <b>afternoon flight to Boston</b>. How much does that change your beliefs about whether they would also <b>want a morning flight to Europe</b>?",afternoon flight to Boston,want a morning flight to Europe,other category,7,95656
6,62cb8baf4fbe7c0a2b86ee07,4215,82,"Suppose you learn someone likes watching <b>fantasy movies</b>. How much does that change your beliefs about whether they would also <b>like adventure movies</b>?",fantasy movies,like adventure movies,same category,10,63993
12,62cb8baf4fbe7c0a2b86ee08,6840,50,"Suppose you learn someone wants to take an <b>afternoon flight to Boston</b>. How much does that change your beliefs about whether they would also <b>want an evening flight to Los Angeles</b>?",afternoon flight to Boston,want an evening flight to Los Angeles,same category,3,43034
55,62cb8baf4fbe7c0a2b86ee08,9164,63,"Suppose you learn someone likes watching <b>fantasy movies</b>. How much does that change your beliefs about whether they would also <b>like animation films</b>?",fantasy movies,like animation films,other category,5,114327
84,62cb8baf4fbe7c0a2b86ee08,6627,94,"Suppose you learn someone likes listening to <b>hard rock</b>. How much does that change your beliefs about whether they would also <b>like heavy metal</b>?",hard rock,like heavy metal,same category,8,102285
55,62cb8baf4fbe7c0a2b86ee08,4216,18,"Suppose you learn someone wants to take an <b>afternoon flight to Boston</b>. How much does that change your beliefs about whether they would also <b>want an evening flight to Los Angeles</b>?",afternoon flight to Boston,want an evening flight to Los Angeles,same category,6,118546
12,62cb8baf4fbe7c0a2b86ee08,4694,50,"Suppose you learn someone likes <b>drinking tea</b>. How much does that change your beliefs about whether they would also <b>like soft drinks</b>?",drinking tea,like soft drinks,same category,4,47730
55,62cb8baf4fbe7c0a2b86ee08,4228,9,"Suppose you learn someone likes listening to <b>hard rock</b>. How much does that change your beliefs about whether they would also <b>like heavy metal</b>?",hard rock,like heavy metal,same category,7,122778
102,62cb8baf4fbe7c0a2b86ee08,29936,38,"Suppose you learn someone wants to take a <b>morning flight to Madrid</b>. How much does that change your beliefs about whether they would also <b>want an evening flight to Paris</b>?",morning flight to Madrid,want an evening flight to Paris,same category,2,71970
56,62cb8baf4fbe7c0a2b86ee08,18384,66,"Suppose you learn someone wants to take an <b>afternoon flight to Boston</b>. How much does that change your beliefs about whether they would also <b>want a morning flight to Europe</b>?",afternoon flight to Boston,want a morning flight to Europe,other category,1,36765
12,62cb8baf4fbe7c0a2b86ee08,13661,76,"Suppose you learn someone likes watching <b>cartoons</b>. How much does that change your beliefs about whether they would also <b>like animated films</b>?",cartoons,like animated films,close competitor,5,61393
55,62cb8baf4fbe7c0a2b86ee08,10417,15,"Suppose you learn someone likes <b>raspberry cake</b>. How much does that change your beliefs about whether they would also <b>like lemon cake</b>?",raspberry cake,like lemon cake,same category,8,133198
102,62cb8baf4fbe7c0a2b86ee08,9736,58,"Suppose you learn someone likes listening to <b>bebop jazz</b> How much does that change your beliefs about whether they would also <b>like hard bop jazz</b>?",bebop jazz,like hard bop jazz,close competitor,3,81710
102,62cb8baf4fbe7c0a2b86ee08,4198,21,"Suppose you learn someone likes <b>drinking tea</b>. How much does that change your beliefs about whether they would also <b>like soda</b>?",drinking tea,like soda,same category,4,85911
12,62cb8baf4fbe7c0a2b86ee08,7193,50,"Suppose you learn someone likes listening to <b>hard rock</b>. How much does that change your beliefs about whether they would also <b>like heavy metal</b>?",hard rock,like heavy metal,same category,6,68589
84,62cb8baf4fbe7c0a2b86ee08,22045,22,"Suppose you learn someone likes <b>drinking tea</b>. How much does that change your beliefs about whether they would also <b>like soda</b>?",drinking tea,like soda,same category,9,124331
102,62cb8baf4fbe7c0a2b86ee08,4539,88,"Suppose you learn someone likes watching <b>cartoons</b>. How much does that change your beliefs about whether they would also <b>like comedies</b>?",cartoons,like comedies,same category,5,90452
12,62cb8baf4fbe7c0a2b86ee08,5196,50,"Suppose you learn someone likes listening to <b>bebop jazz</b> How much does that change your beliefs about whether they would also <b>like hard bop jazz</b>?",bebop jazz,like hard bop jazz,close competitor,7,73787
84,62cb8baf4fbe7c0a2b86ee08,6484,53,"Suppose you learn someone likes <b>raspberry cake</b>. How much does that change your beliefs about whether they would also <b>like pasta al forno</b>?",raspberry cake,like pasta al forno,other category,10,130817
56,62cb8baf4fbe7c0a2b86ee08,15317,58,"Suppose you learn someone likes <b>drinking white wine</b>. How much does that change your beliefs about whether they would also <b>like red wine</b>?",drinking white wine,like red wine,close competitor,2,52088
12,62cb8baf4fbe7c0a2b86ee08,3317,50,"Suppose you learn someone wants to take a <b>morning flight to Madrid</b>. How much does that change your beliefs about whether they would also <b>want an evening flight to Paris</b>?",morning flight to Madrid,want an evening flight to Paris,same category,8,77110
102,62cb8baf4fbe7c0a2b86ee08,6481,51,"Suppose you learn someone likes <b>raspberry cake</b>. How much does that change your beliefs about whether they would also <b>like pasta al forno</b>?",raspberry cake,like pasta al forno,other category,6,96935
12,62cb8baf4fbe7c0a2b86ee08,3094,50,"Suppose you learn someone likes <b>pasta arrabiata</b>. How much does that change your beliefs about whether they would also <b>like chocolate cookies</b>?",pasta arrabiata,like chocolate cookies,other category,9,80207
102,62cb8baf4fbe7c0a2b86ee08,3895,50,"Suppose you learn someone likes <b>pasta arrabiata</b>. How much does that change your beliefs about whether they would also <b>like chocolate cookies</b>?",pasta arrabiata,like chocolate cookies,other category,7,100832
55,62cb8baf4fbe7c0a2b86ee08,21717,72,"Suppose you learn someone likes <b>pasta arrabiata</b>. How much does that change your beliefs about whether they would also <b>like chocolate cookies</b>?",pasta arrabiata,like chocolate cookies,other category,9,154918
12,62cb8baf4fbe7c0a2b86ee08,6490,68,"Suppose you learn someone likes watching <b>fantasy movies</b>. How much does that change your beliefs about whether they would also <b>like science fiction movies</b>?",fantasy movies,like science fiction movies,close competitor,10,86700
56,62cb8baf4fbe7c0a2b86ee08,12870,51,"Suppose you learn someone likes watching <b>fantasy movies</b>. How much does that change your beliefs about whether they would also <b>like science fiction movies</b>?",fantasy movies,like science fiction movies,close competitor,3,64962
55,62cb8baf4fbe7c0a2b86ee08,4499,44,"Suppose you learn someone likes watching <b>cartoons</b>. How much does that change your beliefs about whether they would also <b>like musicals</b>?",cartoons,like musicals,same category,10,159421
102,62cb8baf4fbe7c0a2b86ee08,10780,50,"Suppose you learn someone wants to take an <b>afternoon flight to Boston</b>. How much does that change your beliefs about whether they would also <b>want an afternoon flight to San Francisco</b>?",afternoon flight to Boston,want an afternoon flight to San Francisco,same category,8,111614
100,62cb8baf4fbe7c0a2b86ee08,9899,21,"Suppose you learn someone likes listening to <b>hard rock</b>. How much does that change your beliefs about whether they would also <b>like dixieland</b>?",hard rock,like dixieland,other category,1,25610
83,62cb8baf4fbe7c0a2b86ee07,13262,100,"Suppose you learn someone likes <b>pasta arrabiata</b>. How much does that change your beliefs about whether they would also <b>like lasagna</b>?",pasta arrabiata,like lasagna,same category,1,89773
102,62cb8baf4fbe7c0a2b86ee08,6382,12,"Suppose you learn someone likes listening to <b>hard rock</b>. How much does that change your beliefs about whether they would also <b>like dixieland</b>?",hard rock,like dixieland,other category,9,117998
56,62cb8baf4fbe7c0a2b86ee08,13264,79,"Suppose you learn someone likes listening to <b>hard rock</b>. How much does that change your beliefs about whether they would also <b>like classic rock</b>?",hard rock,like classic rock,close competitor,4,78231
102,62cb8baf4fbe7c0a2b86ee08,4532,10,"Suppose you learn someone likes <b>drinking white wine</b>. How much does that change your beliefs about whether they would also <b>like whiskey</b>?",drinking white wine,like whiskey,same category,10,122533
56,62cb8baf4fbe7c0a2b86ee08,5436,72,"Suppose you learn someone likes listening to <b>bebop jazz</b> How much does that change your beliefs about whether they would also <b>like soul jazz</b>?",bebop jazz,like soul jazz,same category,5,83671
100,62cb8baf4fbe7c0a2b86ee08,13867,69,"Suppose you learn someone wants to take an <b>afternoon flight to Boston</b>. How much does that change your beliefs about whether they would also <b>want an afternoon flight to Europe</b>?",afternoon flight to Boston,want an afternoon flight to Europe,other category,2,39488
83,62cb8baf4fbe7c0a2b86ee07,12158,42,"Suppose you learn someone likes listening to <b>bebop jazz</b> How much does that change your beliefs about whether they would also <b>like doom metal</b>?",bebop jazz,like doom metal,other category,2,101932
100,62cb8baf4fbe7c0a2b86ee08,6116,59,"Suppose you learn someone likes <b>pasta arrabiata</b>. How much does that change your beliefs about whether they would also <b>like lasagna</b>?",pasta arrabiata,like lasagna,same category,3,45612
56,62cb8baf4fbe7c0a2b86ee08,7237,51,"Suppose you learn someone likes <b>pasta arrabiata</b>. How much does that change your beliefs about whether they would also <b>like pizza</b>?",pasta arrabiata,like pizza,same category,6,90913
56,62cb8baf4fbe7c0a2b86ee08,4678,50,"Suppose you learn someone likes <b>drinking tea</b>. How much does that change your beliefs about whether they would also <b>like beer</b>?",drinking tea,like beer,other category,7,95595
100,62cb8baf4fbe7c0a2b86ee08,6384,52,"Suppose you learn someone likes <b>drinking tea</b>. How much does that change your beliefs about whether they would also <b>like red wine</b>?",drinking tea,like red wine,other category,4,52006
4,62cb8baf4fbe7c0a2b86ee07,19921,49,"Suppose you learn someone wants to take an <b>afternoon flight to Boston</b>. How much does that change your beliefs about whether they would also <b>want an afternoon flight to San Francisco</b>?",afternoon flight to Boston,want an afternoon flight to San Francisco,same category,1,63040
100,62cb8baf4fbe7c0a2b86ee08,4438,36,"Suppose you learn someone likes watching <b>cartoons</b>. How much does that change your beliefs about whether they would also <b>like horror movies</b>?",cartoons,like horror movies,other category,5,56455
83,62cb8baf4fbe7c0a2b86ee07,15693,53,"Suppose you learn someone wants to take an <b>afternoon flight to Boston</b>. How much does that change your beliefs about whether they would also <b>want an afternoon flight to San Francisco</b>?",afternoon flight to Boston,want an afternoon flight to San Francisco,same category,3,117625
100,62cb8baf4fbe7c0a2b86ee08,5204,0,"Suppose you learn someone likes listening to <b>bebop jazz</b> How much does that change your beliefs about whether they would also <b>like death metal</b>?",bebop jazz,like death metal,other category,6,61669
83,62cb8baf4fbe7c0a2b86ee07,4889,54,"Suppose you learn someone wants to take a <b>morning flight to Madrid</b>. How much does that change your beliefs about whether they would also <b>want a morning flight to the United States</b>?",morning flight to Madrid,want a morning flight to the United States,other category,4,122515
4,62cb8baf4fbe7c0a2b86ee07,10194,64,"Suppose you learn someone likes watching <b>cartoons</b>. How much does that change your beliefs about whether they would also <b>like comedies</b>?",cartoons,like comedies,same category,2,73234
28,62cb8baf4fbe7c0a2b86ee07,6845,50,"Suppose you learn someone likes <b>drinking tea</b>. How much does that change your beliefs about whether they would also <b>like red wine</b>?",drinking tea,like red wine,other category,1,27574
56,62cb8baf4fbe7c0a2b86ee08,13960,86,"Suppose you learn someone likes watching <b>cartoons</b>. How much does that change your beliefs about whether they would also <b>like animated films</b>?",cartoons,like animated films,close competitor,8,109559
100,62cb8baf4fbe7c0a2b86ee08,4682,58,"Suppose you learn someone likes <b>raspberry cake</b>. How much does that change your beliefs about whether they would also <b>like lemon cake</b>?",raspberry cake,like lemon cake,same category,7,66361
83,62cb8baf4fbe7c0a2b86ee07,8744,50,"Suppose you learn someone likes watching <b>cartoons</b>. How much does that change your beliefs about whether they would also <b>like horror movies</b>?",cartoons,like horror movies,other category,5,131260
100,62cb8baf4fbe7c0a2b86ee08,6523,35,"Suppose you learn someone wants to take a <b>morning flight to Madrid</b>. How much does that change your beliefs about whether they would also <b>want an evening flight to the United States</b>?",morning flight to Madrid,want an evening flight to the United States,other category,8,72893
28,62cb8baf4fbe7c0a2b86ee07,9034,72,"Suppose you learn someone likes watching <b>cartoons</b>. How much does that change your beliefs about whether they would also <b>like animated films</b>?",cartoons,like animated films,close competitor,2,36608
56,62cb8baf4fbe7c0a2b86ee08,8515,53,"Suppose you learn someone wants to take a <b>morning flight to Madrid</b>. How much does that change your beliefs about whether they would also <b>want an evening flight to the United States</b>?",morning flight to Madrid,want an evening flight to the United States,other category,9,118078
4,62cb8baf4fbe7c0a2b86ee07,9548,61,"Suppose you learn someone likes <b>drinking white wine</b>. How much does that change your beliefs about whether they would also <b>like whiskey</b>?",drinking white wine,like whiskey,same category,3,82784
100,62cb8baf4fbe7c0a2b86ee08,5574,56,"Suppose you learn someone likes <b>drinking white wine</b>. How much does that change your beliefs about whether they would also <b>like beer</b>?",drinking white wine,like beer,same category,9,78477
56,62cb8baf4fbe7c0a2b86ee08,6512,51,"Suppose you learn someone likes <b>raspberry cake</b>. How much does that change your beliefs about whether they would also <b>like pasta al forno</b>?",raspberry cake,like pasta al forno,other category,10,124594
28,62cb8baf4fbe7c0a2b86ee07,6965,50,"Suppose you learn someone likes <b>pasta arrabiata</b>. How much does that change your beliefs about whether they would also <b>like chocolate cookies</b>?",pasta arrabiata,like chocolate cookies,other category,3,43573
100,62cb8baf4fbe7c0a2b86ee08,3467,51,"Suppose you learn someone likes watching <b>fantasy movies</b>. How much does that change your beliefs about whether they would also <b>like cartoons</b>?",fantasy movies,like cartoons,other category,10,81956
63,62cb8baf4fbe7c0a2b86ee08,11397,58,"Suppose you learn someone likes listening to <b>hard rock</b>. How much does that change your beliefs about whether they would also <b>like dixieland</b>?",hard rock,like dixieland,other category,1,40396
4,62cb8baf4fbe7c0a2b86ee07,9178,87,"Suppose you learn someone likes listening to <b>hard rock</b>. How much does that change your beliefs about whether they would also <b>like classic rock</b>?",hard rock,like classic rock,close competitor,4,91962
63,62cb8baf4fbe7c0a2b86ee08,5216,48,"Suppose you learn someone likes <b>raspberry cake</b>. How much does that change your beliefs about whether they would also <b>like cheese sandwiches</b>?",raspberry cake,like cheese sandwiches,other category,2,45614
28,62cb8baf4fbe7c0a2b86ee07,12450,59,"Suppose you learn someone likes listening to <b>hard rock</b>. How much does that change your beliefs about whether they would also <b>like power metal</b>?",hard rock,like power metal,same category,4,56023
63,62cb8baf4fbe7c0a2b86ee08,4234,73,"Suppose you learn someone likes listening to <b>bebop jazz</b> How much does that change your beliefs about whether they would also <b>like soul jazz</b>?",bebop jazz,like soul jazz,same category,3,49851
63,62cb8baf4fbe7c0a2b86ee08,4017,62,"Suppose you learn someone likes watching <b>cartoons</b>. How much does that change your beliefs about whether they would also <b>like musicals</b>?",cartoons,like musicals,same category,4,53870
87,62cb8baf4fbe7c0a2b86ee08,18473,76,"Suppose you learn someone likes listening to <b>bebop jazz</b> How much does that change your beliefs about whether they would also <b>like soul jazz</b>?",bebop jazz,like soul jazz,same category,1,48229
28,62cb8baf4fbe7c0a2b86ee07,5132,50,"Suppose you learn someone likes <b>raspberry cake</b>. How much does that change your beliefs about whether they would also <b>like cheese sandwiches</b>?",raspberry cake,like cheese sandwiches,other category,5,61173
83,62cb8baf4fbe7c0a2b86ee07,26458,100,"Suppose you learn someone likes watching <b>fantasy movies</b>. How much does that change your beliefs about whether they would also <b>like science fiction movies</b>?",fantasy movies,like science fiction movies,close competitor,6,157720
63,62cb8baf4fbe7c0a2b86ee08,5538,50,"Suppose you learn someone likes <b>drinking tea</b>. How much does that change your beliefs about whether they would also <b>like red wine</b>?",drinking tea,like red wine,other category,5,59411
28,62cb8baf4fbe7c0a2b86ee07,5166,67,"Suppose you learn someone likes watching <b>fantasy movies</b>. How much does that change your beliefs about whether they would also <b>like adventure movies</b>?",fantasy movies,like adventure movies,same category,6,66355
83,62cb8baf4fbe7c0a2b86ee07,4488,51,"Suppose you learn someone likes <b>raspberry cake</b>. How much does that change your beliefs about whether they would also <b>like cheese sandwiches</b>?",raspberry cake,like cheese sandwiches,other category,7,162208
87,62cb8baf4fbe7c0a2b86ee08,8197,45,"Suppose you learn someone likes watching <b>cartoons</b>. How much does that change your beliefs about whether they would also <b>like comedies</b>?",cartoons,like comedies,same category,2,56434
83,62cb8baf4fbe7c0a2b86ee07,4555,84,"Suppose you learn someone likes listening to <b>hard rock</b>. How much does that change your beliefs about whether they would also <b>like power metal</b>?",hard rock,like power metal,same category,8,166764
28,62cb8baf4fbe7c0a2b86ee07,8265,50,"Suppose you learn someone likes listening to <b>bebop jazz</b> How much does that change your beliefs about whether they would also <b>like hard bop jazz</b>?",bebop jazz,like hard bop jazz,close competitor,7,74622
87,62cb8baf4fbe7c0a2b86ee08,6927,33,"Suppose you learn someone likes watching <b>fantasy movies</b>. How much does that change your beliefs about whether they would also <b>like film noirs</b>?",fantasy movies,like film noirs,same category,3,63368
83,62cb8baf4fbe7c0a2b86ee07,5468,50,"Suppose you learn someone likes <b>drinking tea</b>. How much does that change your beliefs about whether they would also <b>like soft drinks</b>?",drinking tea,like soft drinks,same category,9,172234
83,62cb8baf4fbe7c0a2b86ee07,2333,50,"Suppose you learn someone likes <b>drinking white wine</b>. How much does that change your beliefs about whether they would also <b>like soft drinks</b>?",drinking white wine,like soft drinks,other category,10,174568
4,62cb8baf4fbe7c0a2b86ee07,36017,62,"Suppose you learn someone likes watching <b>fantasy movies</b>. How much does that change your beliefs about whether they would also <b>like cartoons</b>?",fantasy movies,like cartoons,other category,5,127980
28,62cb8baf4fbe7c0a2b86ee07,9052,50,"Suppose you learn someone wants to take a <b>morning flight to Madrid</b>. How much does that change your beliefs about whether they would also <b>want an evening flight to Paris</b>?",morning flight to Madrid,want an evening flight to Paris,same category,8,83674
28,62cb8baf4fbe7c0a2b86ee07,3781,50,"Suppose you learn someone wants to take an <b>afternoon flight to Boston</b>. How much does that change your beliefs about whether they would also <b>want an afternoon flight to Europe</b>?",afternoon flight to Boston,want an afternoon flight to Europe,other category,9,87457
63,62cb8baf4fbe7c0a2b86ee08,21719,50,"Suppose you learn someone wants to take a <b>morning flight to Madrid</b>. How much does that change your beliefs about whether they would also <b>want a morning flight to the United States</b>?",morning flight to Madrid,want a morning flight to the United States,other category,6,81131
87,62cb8baf4fbe7c0a2b86ee08,14366,47,"Suppose you learn someone wants to take a <b>morning flight to Madrid</b>. How much does that change your beliefs about whether they would also <b>want a morning flight to Berlin</b>?",morning flight to Madrid,want a morning flight to Berlin,same category,4,77742
28,62cb8baf4fbe7c0a2b86ee07,4147,50,"Suppose you learn someone likes <b>drinking white wine</b>. How much does that change your beliefs about whether they would also <b>like coffee</b>?",drinking white wine,like coffee,other category,10,91605
63,62cb8baf4fbe7c0a2b86ee08,4166,74,"Suppose you learn someone likes <b>pasta arrabiata</b>. How much does that change your beliefs about whether they would also <b>like pasta al forno</b>?",pasta arrabiata,like pasta al forno,close competitor,7,85299
4,62cb8baf4fbe7c0a2b86ee07,9092,49,"Suppose you learn someone likes <b>drinking tea</b>. How much does that change your beliefs about whether they would also <b>like beer</b>?",drinking tea,like beer,other category,6,137072
63,62cb8baf4fbe7c0a2b86ee08,7404,50,"Suppose you learn someone wants to take an <b>afternoon flight to Boston</b>. How much does that change your beliefs about whether they would also <b>want a morning flight to Europe</b>?",afternoon flight to Boston,want a morning flight to Europe,other category,8,92705
87,62cb8baf4fbe7c0a2b86ee08,8999,41,"Suppose you learn someone likes <b>drinking tea</b>. How much does that change your beliefs about whether they would also <b>like beer</b>?",drinking tea,like beer,other category,5,86748
4,62cb8baf4fbe7c0a2b86ee07,11174,97,"Suppose you learn someone likes listening to <b>bebop jazz</b> How much does that change your beliefs about whether they would also <b>like soul jazz</b>?",bebop jazz,like soul jazz,same category,7,148247
87,62cb8baf4fbe7c0a2b86ee08,4937,43,"Suppose you learn someone likes <b>drinking white wine</b>. How much does that change your beliefs about whether they would also <b>like coffee</b>?",drinking white wine,like coffee,other category,6,91691
60,62cb8baf4fbe7c0a2b86ee07,8543,60,"Suppose you learn someone likes <b>raspberry cake</b>. How much does that change your beliefs about whether they would also <b>like chocolate cookies</b>?",raspberry cake,like chocolate cookies,same category,1,19592
60,62cb8baf4fbe7c0a2b86ee07,4057,45,"Suppose you learn someone likes <b>drinking tea</b>. How much does that change your beliefs about whether they would also <b>like coffee</b>?",drinking tea,like coffee,close competitor,2,23649
87,62cb8baf4fbe7c0a2b86ee08,8058,75,"Suppose you learn someone likes <b>pasta arrabiata</b>. How much does that change your beliefs about whether they would also <b>like pasta al forno</b>?",pasta arrabiata,like pasta al forno,close competitor,7,99756
4,62cb8baf4fbe7c0a2b86ee07,13227,92,"Suppose you learn someone likes <b>pasta arrabiata</b>. How much does that change your beliefs about whether they would also <b>like lasagna</b>?",pasta arrabiata,like lasagna,same category,8,161475
60,62cb8baf4fbe7c0a2b86ee07,5683,74,"Suppose you learn someone wants to take a <b>morning flight to Madrid</b>. How much does that change your beliefs about whether they would also <b>want an evening flight to Paris</b>?",morning flight to Madrid,want an evening flight to Paris,same category,3,29333
